{
  "resourceType": "Bundle",
  "type": "searchset",
  "total": 2,
  "entry": [
    {
      "resource": {
        "resourceType": "Patient",
        "id": "test-patient-1",
        "name": [
          {
            "family": "Test",
            "given": ["Patient"]
          }
        ],
        "gender": "male",
        "birthDate": "1970-01-01",
        "active": true,
        "telecom": [
          {
            "system": "phone",
            "value": "555-1234",
            "use": "home"
          },
          {
            "system": "email",
            "value": "test.patient@example.com",
            "use": "work"
          }
        ],
        "address": [
          {
            "use": "home",
            "line": ["123 Test St"],
            "city": "Testville",
            "state": "TS",
            "postalCode": "12345",
            "country": "Test Country"
          }
        ]
      }
    },
    {
      "resource": {
        "resourceType": "Observation",
        "id": "test-obs-1",
        "status": "final",
        "category": [
          {
            "coding": [
              {
                "system": "http://terminology.hl7.org/CodeSystem/observation-category",
                "code": "vital-signs",
                "display": "Vital Signs"
              }
            ]
          }
        ],
        "code": {
          "coding": [
            {
              "system": "http://loinc.org",
              "code": "8867-4",
              "display": "Heart rate"
            }
          ],
          "text": "Heart rate"
        },
        "subject": {
          "reference": "Patient/test-patient-1"
        },
        "encounter": {
          "reference": "Encounter/test-enc-1"
        },
        "effectiveDateTime": "2023-01-01T12:00:00Z",
        "issued": "2023-01-01T12:05:00Z",
        "valueQuantity": {
          "value": 70,
          "unit": "beats/min",
          "system": "http://unitsofmeasure.org",
          "code": "/min"
        }
      }
    },
    {
      "resource": {
        "resourceType": "Encounter",
        "id": "test-enc-1",
        "status": "finished",
        "class": {
          "system": "http://terminology.hl7.org/CodeSystem/v3-ActCode",
          "code": "AMB",
          "display": "ambulatory"
        },
        "type": [
          {
            "coding": [
              {
                "system": "http://snomed.info/sct",
                "code": "270427003",
                "display": "Patient-initiated encounter"
              }
            ]
          }
        ],
        "subject": {
          "reference": "Patient/test-patient-1"
        },
        "period": {
          "start": "2023-01-01T08:00:00Z",
          "end": "2023-01-01T12:30:00Z"
        }
      }
    }
  ]
} 